File: data/SrTiO3_CollCode23076_gn.xye
2theta	Intensity	y_error
20.0	-0.127425	0.0
20.07	-0.125604	0.0
20.14	-0.118201	0.0
20.21	0.223735	0.0
20.28	0.175083	0.0
20.35	-0.062095	0.0
20.42	-0.0620323	0.0
20.49	0.464375	0.0
20.56	-0.0219657	0.0
20.63	0.154931	0.0
20.7	0.113307	0.0
20.77	-0.0257445	0.0
20.84	0.105745	0.0
20.91	0.401777	0.0
20.98	0.196832	0.0
21.05	0.0778793	0.0
21.12	-0.0296757	0.0
21.19	-0.0775713	0.0
21.26	-0.0869196	0.0
21.33	-0.194794	0.0
21.4	-0.0508765	0.0
21.47	0.113201	0.0
21.54	0.133445	0.0
21.61	0.140397	0.0
21.68	0.196274	0.0
21.75	0.138103	0.0
21.82	-0.373223	0.0
21.89	-0.185107	0.0
21.96	0.104863	0.0
22.03	0.188605	0.0
22.1	-0.118455	0.0
22.17	-0.166685	0.0
22.24	-0.0703913	0.0
22.31	0.0345938	0.0
22.38	0.0147782	0.0
22.45	-0.0926594	0.0
22.52	0.000392101	0.0
22.59	-0.282763	0.0
22.66	0.210276	0.0
22.73	1.50348	0.0
22.8	0.314357	0.0
22.87	0.0600102	0.0
22.94	-0.0994799	0.0
23.01	0.0715088	0.0
23.08	-0.0443703	0.0
23.15	-0.0858274	0.0
23.22	-0.00616821	0.0
23.29	0.181224	0.0
23.36	-0.00574673	0.0
23.43	0.144987	0.0
23.5	-0.0331032	0.0
23.57	0.195263	0.0
23.64	0.0992413	0.0
23.71	-0.239305	0.0
23.78	0.0185419	0.0
23.85	0.135171	0.0
23.92	-0.17833	0.0
23.99	0.0897134	0.0
24.06	0.105924	0.0
24.13	-0.197398	0.0
24.2	0.0758557	0.0
24.27	-0.122829	0.0
24.34	-0.100552	0.0
24.41	0.086915	0.0
24.48	0.212952	0.0
24.55	-0.0707351	0.0
24.62	-0.0575023	0.0
24.69	-0.0340571	0.0
24.76	-0.0777326	0.0
24.83	0.0138484	0.0
24.9	0.0247685	0.0
24.97	-0.0131448	0.0
25.04	0.125047	0.0
25.11	0.268133	0.0
25.18	0.103293	0.0
25.25	0.0543587	0.0
25.32	-0.0877875	0.0
25.39	0.0356317	0.0
25.46	-0.138187	0.0
25.53	0.247419	0.0
25.6	-0.170026	0.0
25.67	0.152205	0.0
25.74	0.0687104	0.0
25.81	-0.115206	0.0
25.88	-0.00361193	0.0
25.95	-0.0519339	0.0
26.02	0.226672	0.0
26.09	-0.0551106	0.0
26.16	-0.341847	0.0
26.23	0.0875354	0.0
26.3	-0.0110594	0.0
26.37	0.102931	0.0
26.44	0.110441	0.0
26.51	0.100605	0.0
26.58	0.137977	0.0
26.65	-0.0679844	0.0
26.72	-0.219222	0.0
26.79	-0.405683	0.0
26.86	0.0981883	0.0
26.93	0.23341	0.0
27.0	0.0423669	0.0
27.07	0.0347608	0.0
27.14	-0.00334332	0.0
27.21	-0.166472	0.0
27.28	0.141783	0.0
27.35	0.141013	0.0
27.42	0.0332011	0.0
27.49	-0.0782875	0.0
27.56	-0.0330083	0.0
27.63	0.183121	0.0
27.7	-0.29863	0.0
27.77	0.147091	0.0
27.84	0.15281	0.0
27.91	-0.155057	0.0
27.98	-0.0671905	0.0
28.05	0.172741	0.0
28.12	-0.280715	0.0
28.19	0.31431	0.0
28.26	0.016078	0.0
28.33	0.0996837	0.0
28.4	0.0940202	0.0
28.47	-0.131061	0.0
28.54	-0.0267595	0.0
28.61	-0.0897164	0.0
28.68	0.0307065	0.0
28.75	-0.0256209	0.0
28.82	0.134277	0.0
28.89	-0.221791	0.0
28.96	-0.177786	0.0
29.03	0.209611	0.0
29.1	0.173113	0.0
29.17	0.0390436	0.0
29.24	-0.103925	0.0
29.31	-0.0625498	0.0
29.38	0.0297539	0.0
29.45	-0.136661	0.0
29.52	0.196852	0.0
29.59	-0.0427101	0.0
29.66	0.0342336	0.0
29.73	-0.114807	0.0
29.8	-0.166752	0.0
29.87	-0.118229	0.0
29.94	-0.0502796	0.0
30.01	-0.183774	0.0
30.08	0.239432	0.0
30.15	-0.168025	0.0
30.22	-0.0944771	0.0
30.29	0.0426034	0.0
30.36	0.217607	0.0
30.43	-0.331439	0.0
30.5	0.118299	0.0
30.57	-0.0869084	0.0
30.64	0.196156	0.0
30.71	0.11341	0.0
30.78	0.0128624	0.0
30.85	0.0600652	0.0
30.92	0.0595414	0.0
30.99	0.150545	0.0
31.06	0.0433754	0.0
31.13	0.0652112	0.0
31.2	-0.205116	0.0
31.27	0.0629912	0.0
31.34	-0.120231	0.0
31.41	-0.128651	0.0
31.48	-0.0662796	0.0
31.55	0.0658121	0.0
31.62	0.0746741	0.0
31.69	0.302302	0.0
31.76	-0.0785342	0.0
31.83	0.130017	0.0
31.9	0.350065	0.0
31.97	0.235339	0.0
32.04	0.167007	0.0
32.11	0.382316	0.0
32.18	0.484098	0.0
32.25	1.30646	0.0
32.32	5.26092	0.0
32.39	93.1602	0.0
32.46	7.55738	0.0
32.53	1.69078	0.0
32.6	0.579224	0.0
32.67	0.525631	0.0
32.74	0.383046	0.0
32.81	0.207149	0.0
32.88	0.0707	0.0
32.95	-0.101918	0.0
33.02	0.167801	0.0
33.09	0.0638611	0.0
33.16	0.0776737	0.0
33.23	0.132582	0.0
33.3	0.248023	0.0
33.37	0.00259431	0.0
33.44	0.202935	0.0
33.51	-0.168278	0.0
33.58	0.0671591	0.0
33.65	0.0199981	0.0
33.72	0.161664	0.0
33.79	0.321369	0.0
33.86	0.0848793	0.0
33.93	0.198576	0.0
34.0	0.198688	0.0
34.07	0.0507996	0.0
34.14	0.153577	0.0
34.21	0.218012	0.0
34.28	0.0786334	0.0
34.35	-0.0687701	0.0
34.42	0.0794166	0.0
34.49	-0.139488	0.0
34.56	-0.0470939	0.0
34.63	0.222338	0.0
34.7	-0.100836	0.0
34.77	-0.0845375	0.0
34.84	0.0331952	0.0
34.91	0.233338	0.0
34.98	0.0260486	0.0
35.05	0.120415	0.0
35.12	-0.398493	0.0
35.19	-0.0252565	0.0
35.26	0.102415	0.0
35.33	0.374046	0.0
35.4	0.0111381	0.0
35.47	0.0313608	0.0
35.54	0.151365	0.0
35.61	-0.224379	0.0
35.68	-0.0164697	0.0
35.75	-0.103132	0.0
35.82	0.145117	0.0
35.89	0.0555348	0.0
35.96	0.413361	0.0
36.03	-0.00302135	0.0
36.1	-0.163024	0.0
36.17	-0.143882	0.0
36.24	0.311005	0.0
36.31	0.00641494	0.0
36.38	-0.15804	0.0
36.45	0.060055	0.0
36.52	0.0328621	0.0
36.59	-0.0755739	0.0
36.66	-0.0025325	0.0
36.73	0.0870179	0.0
36.8	-0.170223	0.0
36.87	0.203683	0.0
36.94	0.169531	0.0
37.01	0.0973045	0.0
37.08	-0.353705	0.0
37.15	-0.0103511	0.0
37.22	0.043306	0.0
37.29	0.115909	0.0
37.36	-0.0925825	0.0
37.43	-0.264313	0.0
37.5	-0.0618543	0.0
37.57	-0.188573	0.0
37.64	-0.0526131	0.0
37.71	0.0538298	0.0
37.78	-0.0994624	0.0
37.85	-0.0948856	0.0
37.92	0.173934	0.0
37.99	0.200816	0.0
38.06	0.101413	0.0
38.13	0.16447	0.0
38.2	-0.114416	0.0
38.27	0.339076	0.0
38.34	0.0652905	0.0
38.41	-0.0648585	0.0
38.48	-0.0782258	0.0
38.55	-0.214761	0.0
38.62	-0.0883442	0.0
38.69	-0.123296	0.0
38.76	-0.209333	0.0
38.83	-0.000859352	0.0
38.9	0.0846269	0.0
38.97	-0.182752	0.0
39.04	0.332594	0.0
39.11	0.0448618	0.0
39.18	0.0825503	0.0
39.25	0.145268	0.0
39.32	-0.0591393	0.0
39.39	0.00859845	0.0
39.46	0.0913558	0.0
39.53	-0.0182262	0.0
39.6	0.0199954	0.0
39.67	0.0904402	0.0
39.74	-0.071805	0.0
39.81	0.213859	0.0
39.88	1.26625	0.0
39.95	16.5851	0.0
40.02	1.78253	0.0
40.09	0.415375	0.0
40.16	-0.0472345	0.0
40.23	0.253487	0.0
40.3	0.108141	0.0
40.37	-0.129807	0.0
40.44	0.196592	0.0
40.51	0.0492389	0.0
40.58	-0.0364075	0.0
40.65	0.05218	0.0
40.72	-0.197736	0.0
40.79	-0.0642168	0.0
40.86	0.142968	0.0
40.93	0.0870605	0.0
41.0	-0.0380487	0.0
41.07	-0.292377	0.0
41.14	-0.394847	0.0
41.21	0.270717	0.0
41.28	0.118232	0.0
41.35	0.269387	0.0
41.42	-0.0477811	0.0
41.49	-0.0289412	0.0
41.56	-0.174537	0.0
41.63	-0.160002	0.0
41.7	0.0479373	0.0
41.77	0.132218	0.0
41.84	0.0368992	0.0
41.91	0.103482	0.0
41.98	0.129716	0.0
42.05	0.0857604	0.0
42.12	-0.00430648	0.0
42.19	-0.0476836	0.0
42.26	0.241594	0.0
42.33	0.0518913	0.0
42.4	-0.0462535	0.0
42.47	0.109999	0.0
42.54	0.0133377	0.0
42.61	-0.127768	0.0
42.68	-0.221695	0.0
42.75	-0.0754263	0.0
42.82	-0.167863	0.0
42.89	0.0259891	0.0
42.96	0.0104998	0.0
43.03	0.131903	0.0
43.1	-0.051581	0.0
43.17	-0.064534	0.0
43.24	0.011312	0.0
43.31	0.219522	0.0
43.38	-0.0614315	0.0
43.45	-0.368001	0.0
43.52	0.0107366	0.0
43.59	-0.141826	0.0
43.66	0.0457997	0.0
43.73	-0.263474	0.0
43.8	0.0699822	0.0
43.87	-0.141191	0.0
43.94	-0.143854	0.0
44.01	-0.0548253	0.0
44.08	0.0748377	0.0
44.15	0.277704	0.0
44.22	0.173535	0.0
44.29	0.279732	0.0
44.36	0.0763784	0.0
44.43	-0.0162976	0.0
44.5	0.00506392	0.0
44.57	-0.211035	0.0
44.64	0.170941	0.0
44.71	-0.146019	0.0
44.78	0.254753	0.0
44.85	-0.141628	0.0
44.92	0.10365	0.0
44.99	0.0365038	0.0
45.06	0.0344074	0.0
45.13	0.209016	0.0
45.2	0.0929882	0.0
45.27	-0.0171918	0.0
45.34	-0.0433122	0.0
45.41	-0.0416839	0.0
45.48	0.118918	0.0
45.55	-0.137667	0.0
45.62	0.052988	0.0
45.69	-0.122841	0.0
45.76	0.128277	0.0
45.83	0.148822	0.0
45.9	-0.108562	0.0
45.97	-0.0463689	0.0
46.04	0.142168	0.0
46.11	0.115584	0.0
46.18	0.201445	0.0
46.25	0.448832	0.0
46.32	0.702446	0.0
46.39	2.47023	0.0
46.46	27.2497	0.0
46.53	4.86491	0.0
46.6	1.2535	0.0
46.67	0.207861	0.0
46.74	0.22115	0.0
46.81	0.375638	0.0
46.88	-0.190085	0.0
46.95	-0.121801	0.0
47.02	0.0951969	0.0
47.09	0.20384	0.0
47.16	0.138555	0.0
47.23	-0.0965513	0.0
47.3	-0.0196073	0.0
47.37	0.0905677	0.0
47.44	0.270492	0.0
47.51	0.199082	0.0
47.58	0.00495655	0.0
47.65	-0.0063097	0.0
47.72	0.00371602	0.0
47.79	0.0593393	0.0
47.86	-0.0890451	0.0
47.93	-0.0160274	0.0
48.0	0.362674	0.0
48.07	0.00054852	0.0
48.14	-0.0904369	0.0
48.21	0.0735467	0.0
48.28	-0.0638312	0.0
48.35	0.160047	0.0
48.42	0.0651131	0.0
48.49	0.0742363	0.0
48.56	-0.116711	0.0
48.63	0.0400445	0.0
48.7	0.285604	0.0
48.77	-0.237946	0.0
48.84	0.0703668	0.0
48.91	-0.161016	0.0
48.98	-0.0594846	0.0
49.05	-0.0735118	0.0
49.12	0.208329	0.0
49.19	-0.0362771	0.0
49.26	0.183203	0.0
49.33	0.325228	0.0
49.4	-0.0472936	0.0
49.47	-0.105095	0.0
49.54	-0.0862189	0.0
49.61	-0.0129031	0.0
49.68	0.0993995	0.0
49.75	-0.130174	0.0
49.82	-0.222512	0.0
49.89	0.072603	0.0
49.96	-0.0998395	0.0
50.03	-0.0469864	0.0
50.1	0.0836853	0.0
50.17	0.0357151	0.0
50.24	-0.0179804	0.0
50.31	0.00177968	0.0
50.38	0.171466	0.0
50.45	-0.0973339	0.0
50.52	-0.123396	0.0
50.59	0.197525	0.0
50.66	-0.202227	0.0
50.73	0.0551811	0.0
50.8	-0.00816824	0.0
50.87	0.061297	0.0
50.94	-0.1841	0.0
51.01	-0.0534352	0.0
51.08	0.331444	0.0
51.15	-0.159772	0.0
51.22	-0.22899	0.0
51.29	0.330125	0.0
51.36	0.0784162	0.0
51.43	0.0740348	0.0
51.5	-0.0160071	0.0
51.57	-0.0269986	0.0
51.64	0.195922	0.0
51.71	-0.0402925	0.0
51.78	0.0864846	0.0
51.85	0.185082	0.0
51.92	0.134654	0.0
51.99	-0.0717487	0.0
52.06	0.222495	0.0
52.13	0.217955	0.0
52.2	0.279795	0.0
52.27	-0.0131006	0.0
52.34	1.70727	0.0
52.41	0.229153	0.0
52.48	0.225908	0.0
52.55	-0.148832	0.0
52.62	0.173476	0.0
52.69	-0.0820688	0.0
52.76	-0.116509	0.0
52.83	0.0299109	0.0
52.9	-0.228168	0.0
52.97	0.304419	0.0
53.04	-0.0173986	0.0
53.11	-0.328083	0.0
53.18	0.041348	0.0
53.25	-0.226812	0.0
53.32	0.112249	0.0
53.39	0.0839925	0.0
53.46	0.0888446	0.0
53.53	-0.0340554	0.0
53.6	-0.0975231	0.0
53.67	0.111369	0.0
53.74	-0.168947	0.0
53.81	-0.0597898	0.0
53.88	-0.0603027	0.0
53.95	0.02192	0.0
54.02	0.0597865	0.0
54.09	0.21368	0.0
54.16	-0.0337676	0.0
54.23	0.0331298	0.0
54.3	0.0609292	0.0
54.37	-0.168826	0.0
54.44	0.0353841	0.0
54.51	0.263948	0.0
54.58	0.106757	0.0
54.65	-0.166957	0.0
54.72	-0.0862503	0.0
54.79	-0.301784	0.0
54.86	0.155197	0.0
54.93	0.188507	0.0
55.0	-0.10964	0.0
55.07	-0.0291324	0.0
55.14	0.0105795	0.0
55.21	0.108409	0.0
55.28	-0.144319	0.0
55.35	0.284839	0.0
55.42	0.121553	0.0
55.49	-0.0226767	0.0
55.56	-0.116807	0.0
55.63	-0.109642	0.0
55.7	-0.0219841	0.0
55.77	0.188071	0.0
55.84	0.230261	0.0
55.91	0.251615	0.0
55.98	0.219492	0.0
56.05	-0.0364243	0.0
56.12	-0.0576624	0.0
56.19	-0.0201924	0.0
56.26	0.240994	0.0
56.33	0.15362	0.0
56.4	0.435471	0.0
56.47	0.341	0.0
56.54	0.101613	0.0
56.61	0.104477	0.0
56.68	0.0868185	0.0
56.75	-0.116556	0.0
56.82	0.0166591	0.0
56.89	0.376462	0.0
56.96	-0.0406408	0.0
57.03	0.223468	0.0
57.1	-0.0410689	0.0
57.17	0.00225942	0.0
57.24	-0.122609	0.0
57.31	0.00402174	0.0
57.38	-0.18096	0.0
57.45	0.454589	0.0
57.52	0.522652	0.0
57.59	0.449398	0.0
57.66	1.15363	0.0
57.73	5.75625	0.0
57.8	20.9156	0.0
57.87	2.85233	0.0
57.94	0.912904	0.0
58.01	0.217063	0.0
58.08	0.485105	0.0
58.15	-0.0478077	0.0
58.22	0.0234893	0.0
58.29	-0.0230722	0.0
58.36	0.0784023	0.0
58.43	0.0491312	0.0
58.5	0.176951	0.0
58.57	0.0684841	0.0
58.64	0.115873	0.0
58.71	0.060537	0.0
58.78	-0.0050905	0.0
58.85	0.0760193	0.0
58.92	0.13526	0.0
58.99	0.0437018	0.0
59.06	0.148883	0.0
59.13	0.0758617	0.0
59.2	0.155069	0.0
59.27	-0.00754608	0.0
59.34	0.112684	0.0
59.41	-0.304692	0.0
59.48	0.160566	0.0
59.55	0.15343	0.0
59.62	0.0334394	0.0
59.69	0.0150415	0.0
59.76	0.0861034	0.0
59.83	-0.0524577	0.0
59.9	-0.171815	0.0
59.97	-0.317453	0.0
60.04	-0.0877411	0.0
60.11	-0.0728031	0.0
60.18	-0.28514	0.0
60.25	0.0703736	0.0
60.32	0.249192	0.0
60.39	0.196965	0.0
60.46	-0.0040084	0.0
60.53	-0.136988	0.0
60.6	-0.220779	0.0
60.67	0.0406236	0.0
60.74	-0.0210893	0.0
60.81	-0.032729	0.0
60.88	-0.0101489	0.0
60.95	0.203083	0.0
61.02	0.103331	0.0
61.09	-0.0319624	0.0
61.16	-0.0777362	0.0
61.23	0.403598	0.0
61.3	0.128054	0.0
61.37	0.0540509	0.0
61.44	0.100614	0.0
61.51	0.0445845	0.0
61.58	-0.137614	0.0
61.65	-0.00228522	0.0
61.72	0.161216	0.0
61.79	0.146367	0.0
61.86	0.16076	0.0
61.93	0.16528	0.0
62.0	0.165153	0.0
62.07	0.24443	0.0
62.14	0.106985	0.0
62.21	-0.102642	0.0
62.28	0.0269754	0.0
62.35	-0.103823	0.0
62.42	0.0634122	0.0
62.49	0.360047	0.0
62.56	-0.428519	0.0
62.63	0.101086	0.0
62.7	-0.138836	0.0
62.77	-0.121634	0.0
62.84	0.105419	0.0
62.91	0.144597	0.0
62.98	0.247205	0.0
63.05	-0.0113904	0.0
63.12	-0.187939	0.0
63.19	0.0252363	0.0
63.26	0.11733	0.0
63.33	0.0632247	0.0
63.4	0.0985577	0.0
63.47	0.0423785	0.0
63.54	0.0528668	0.0
63.61	-0.121656	0.0
63.68	0.19491	0.0
63.75	-0.202153	0.0
63.82	-0.114302	0.0
63.89	0.0132396	0.0
63.96	-0.0174366	0.0
64.03	-0.00361809	0.0
64.1	0.0412625	0.0
64.17	-0.331308	0.0
64.24	0.130639	0.0
64.31	0.0126673	0.0
64.38	-0.0657797	0.0
64.45	0.0620137	0.0
64.52	-0.0545856	0.0
64.59	0.118877	0.0
64.66	-0.0880947	0.0
64.73	-0.153263	0.0
64.8	0.0679619	0.0
64.87	0.169583	0.0
64.94	-0.269346	0.0
65.01	-0.0386718	0.0
65.08	0.0169018	0.0
65.15	-0.241823	0.0
65.22	0.254709	0.0
65.29	0.191057	0.0
65.36	-0.0599234	0.0
65.43	-0.184931	0.0
65.5	0.156774	0.0
65.57	0.0857323	0.0
65.64	0.0623536	0.0
65.71	-0.282279	0.0
65.78	0.260084	0.0
65.85	0.416292	0.0
65.92	-0.103437	0.0
65.99	-0.267155	0.0
66.06	-0.0981652	0.0
66.13	-0.0761891	0.0
66.2	0.256573	0.0
66.27	0.0494204	0.0
66.34	0.170142	0.0
66.41	0.256159	0.0
66.48	0.167384	0.0
66.55	-0.134175	0.0
66.62	0.0400393	0.0
66.69	-0.0410582	0.0
66.76	0.0280064	0.0
66.83	-0.106977	0.0
66.9	-0.111287	0.0
66.97	0.0637102	0.0
67.04	0.341349	0.0
67.11	-0.0566561	0.0
67.18	0.316675	0.0
67.25	0.131224	0.0
67.32	-0.00906707	0.0
67.39	0.0143608	0.0
67.46	0.173955	0.0
67.53	0.324805	0.0
67.6	0.316964	0.0
67.67	0.861413	0.0
67.74	1.87415	0.0
67.81	10.3354	0.0
67.88	4.37727	0.0
67.95	0.957272	0.0
68.02	0.33274	0.0
68.09	0.106208	0.0
68.16	-0.00226565	0.0
68.23	-0.0555195	0.0
68.3	0.0754995	0.0
68.37	-0.0238779	0.0
68.44	-0.15168	0.0
68.51	0.0626422	0.0
68.58	-0.152277	0.0
68.65	0.0501566	0.0
68.72	-0.090252	0.0
68.79	-0.130469	0.0
68.86	-0.194683	0.0
68.93	0.137438	0.0
69.0	0.126965	0.0
69.07	0.15166	0.0
69.14	-0.0737963	0.0
69.21	-0.377856	0.0
69.28	0.240239	0.0
69.35	0.0660981	0.0
69.42	-0.17589	0.0
69.49	-0.169634	0.0
69.56	-0.228395	0.0
69.63	0.0344237	0.0
69.7	0.0714957	0.0
69.77	0.0118492	0.0
69.84	0.125422	0.0
69.91	-0.0290407	0.0
69.98	-0.0945737	0.0
70.05	-0.18684	0.0
70.12	-0.0632845	0.0
70.19	-0.238288	0.0
70.26	-0.0898254	0.0
70.33	-0.0535226	0.0
70.4	-0.0992695	0.0
70.47	0.0388328	0.0
70.54	0.114028	0.0
70.61	0.181835	0.0
70.68	0.00873753	0.0
70.75	0.156442	0.0
70.82	0.0214295	0.0
70.89	-0.0613351	0.0
70.96	0.05144	0.0
71.03	0.183078	0.0
71.1	-0.0682227	0.0
71.17	0.122848	0.0
71.24	0.0152427	0.0
71.31	0.102189	0.0
71.38	-0.0175348	0.0
71.45	0.307559	0.0
71.52	-0.404834	0.0
71.59	0.0725864	0.0
71.66	0.152362	0.0
71.73	0.186122	0.0
71.8	0.0368304	0.0
71.87	-0.10288	0.0
71.94	-0.17425	0.0
72.01	-0.0669745	0.0
72.08	0.026035	0.0
72.15	-0.173107	0.0
72.22	0.192988	0.0
72.29	-0.0824546	0.0
72.36	-0.0544	0.0
72.43	0.00930996	0.0
72.5	0.1951	0.0
72.57	0.90004	0.0
72.64	0.112331	0.0
72.71	0.10599	0.0
72.78	0.254652	0.0
72.85	-0.090994	0.0
72.92	-0.210166	0.0
72.99	0.0251079	0.0
73.06	-0.0748877	0.0
73.13	-0.0186043	0.0
73.2	-0.0758049	0.0
73.27	0.327018	0.0
73.34	0.246452	0.0
73.41	0.0245804	0.0
73.48	0.323948	0.0
73.55	-0.120094	0.0
73.62	-0.0400256	0.0
73.69	0.410846	0.0
73.76	-0.0281503	0.0
73.83	0.164315	0.0
73.9	0.021994	0.0
73.97	0.00752667	0.0
74.04	0.0946299	0.0
74.11	0.0110284	0.0
74.18	-0.209092	0.0
74.25	0.0450951	0.0
74.32	-0.0306062	0.0
74.39	-0.116336	0.0
74.46	-0.0614041	0.0
74.53	-0.0898015	0.0
74.6	-0.112446	0.0
74.67	0.0959351	0.0
74.74	0.0159246	0.0
74.81	-0.0737726	0.0
74.88	0.079748	0.0
74.95	0.164768	0.0
75.02	0.0317576	0.0
75.09	-0.159836	0.0
75.16	0.0272778	0.0
75.23	-0.176657	0.0
75.3	-0.13944	0.0
75.37	0.0143066	0.0
75.44	0.0143888	0.0
75.51	0.237105	0.0
75.58	0.121501	0.0
75.65	0.175722	0.0
75.72	0.0194501	0.0
75.79	0.0449449	0.0
75.86	-0.123025	0.0
75.93	-0.169285	0.0
76.0	0.00640281	0.0
76.07	0.153063	0.0
76.14	-0.0172024	0.0
76.21	-0.256267	0.0
76.28	0.0714928	0.0
76.35	-0.135841	0.0
76.42	0.214549	0.0
76.49	0.299045	0.0
76.56	0.054642	0.0
76.63	-0.0162732	0.0
76.7	-0.0823875	0.0
76.77	-0.0346217	0.0
76.84	0.127494	0.0
76.91	0.106024	0.0
76.98	0.258978	0.0
77.05	0.653187	0.0
77.12	2.28127	0.0
77.19	7.24137	0.0
77.26	2.33056	0.0
77.33	0.418923	0.0
77.4	0.281164	0.0
77.47	0.362201	0.0
77.54	-0.0760739	0.0
77.61	-0.129939	0.0
77.68	0.141898	0.0
77.75	0.18139	0.0
77.82	-0.0641669	0.0
77.89	0.221681	0.0
77.96	-0.00406522	0.0
78.03	0.0248486	0.0
78.1	0.515415	0.0
78.17	-0.0497905	0.0
78.24	0.114313	0.0
78.31	0.120239	0.0
78.38	0.0236128	0.0
78.45	0.22312	0.0
78.52	-0.16793	0.0
78.59	-0.0380488	0.0
78.66	0.0896827	0.0
78.73	0.0960936	0.0
78.8	0.228245	0.0
78.87	0.0820007	0.0
78.94	0.131288	0.0
79.01	0.0365703	0.0
79.08	-0.0800463	0.0
79.15	0.138202	0.0
79.22	0.0391593	0.0
79.29	-0.0164943	0.0
79.36	0.148006	0.0
79.43	0.00285872	0.0
79.5	0.0456655	0.0
79.57	-0.25584	0.0
79.64	0.00655762	0.0
79.71	0.27175	0.0
79.78	-0.140697	0.0
79.85	0.0702711	0.0
79.92	0.0118079	0.0
79.99	0.184285	0.0
80.06	-0.00976897	0.0
80.13	0.103935	0.0
80.2	-0.215673	0.0
80.27	0.107781	0.0
80.34	0.0764877	0.0
80.41	-0.127665	0.0
80.48	0.0612893	0.0
80.55	0.103283	0.0
80.62	-0.157371	0.0
80.69	-0.0676966	0.0
80.76	0.124494	0.0
80.83	-0.157058	0.0
80.9	-0.155382	0.0
80.97	-0.0939975	0.0
81.04	0.0932298	0.0
81.11	0.0477864	0.0
81.18	-0.0802632	0.0
81.25	0.0185473	0.0
81.32	0.118351	0.0
81.39	0.16921	0.0
81.46	0.283612	0.0
81.53	0.257511	0.0
81.6	0.360309	0.0
81.67	1.17011	0.0
81.74	1.86139	0.0
81.81	0.308378	0.0
81.88	0.421771	0.0
81.95	0.00415932	0.0
82.02	0.0507844	0.0
82.09	0.164624	0.0
82.16	0.146395	0.0
82.23	0.211444	0.0
82.3	0.198988	0.0
82.37	-0.0299632	0.0
82.44	0.156744	0.0
82.51	-0.0981914	0.0
82.58	0.178878	0.0
82.65	0.204325	0.0
82.72	-0.225206	0.0
82.79	-0.150554	0.0
82.86	-0.169758	0.0
82.93	-0.0801103	0.0
83.0	0.096564	0.0
83.07	-0.0772285	0.0
83.14	0.109309	0.0
83.21	0.105201	0.0
83.28	0.0496407	0.0
83.35	-0.125393	0.0
83.42	-0.0239631	0.0
83.49	-0.0886848	0.0
83.56	0.171021	0.0
83.63	-0.101669	0.0
83.7	0.165933	0.0
83.77	-0.0187318	0.0
83.84	0.0361538	0.0
83.91	0.0570944	0.0
83.98	0.0892954	0.0
84.05	-0.0599445	0.0
84.12	-0.198308	0.0
84.19	-0.0434411	0.0
84.26	-0.272148	0.0
84.33	-0.0481677	0.0
84.4	0.319504	0.0
84.47	0.191175	0.0
84.54	0.113116	0.0
84.61	-0.267639	0.0
84.68	0.0849926	0.0
84.75	0.00090044	0.0
84.82	0.0978639	0.0
84.89	-0.12576	0.0
84.96	-0.0200151	0.0
85.03	-0.0453542	0.0
85.1	0.207973	0.0
85.17	0.0130187	0.0
85.24	0.218151	0.0
85.31	0.00570241	0.0
85.38	-0.261509	0.0
85.45	0.104568	0.0
85.52	0.196131	0.0
85.59	-0.156804	0.0
85.66	-0.117562	0.0
85.73	0.125485	0.0
85.8	-0.10104	0.0
85.87	0.138659	0.0
85.94	0.23473	0.0
86.01	-0.0422278	0.0
86.08	0.459134	0.0
86.15	1.51446	0.0
86.22	2.70294	0.0
86.29	0.815321	0.0
86.36	0.0913558	0.0
86.43	0.147213	0.0
86.5	0.101874	0.0
86.57	0.23491	0.0
86.64	0.0205231	0.0
86.71	0.166163	0.0
86.78	-0.0093033	0.0
86.85	0.185219	0.0
86.92	0.122901	0.0
86.99	0.140872	0.0
87.06	-0.123194	0.0
87.13	-0.165809	0.0
87.2	-0.115307	0.0
87.27	0.162606	0.0
87.34	-0.124371	0.0
87.41	-0.0639927	0.0
87.48	-0.0604032	0.0
87.55	0.142729	0.0
87.62	0.199347	0.0
87.69	0.190505	0.0
87.76	-0.051427	0.0
87.83	0.218266	0.0
87.9	-0.0710681	0.0
87.97	0.106424	0.0
88.04	0.00240539	0.0
88.11	-0.0997715	0.0
88.18	-0.18674	0.0
88.25	0.0764951	0.0
88.32	0.0133902	0.0
88.39	-0.0315883	0.0
88.46	-0.154459	0.0
88.53	-0.102101	0.0
88.6	-0.363961	0.0
88.67	0.166183	0.0
88.74	0.100894	0.0
88.81	-0.0573596	0.0
88.88	-0.159896	0.0
88.95	0.265902	0.0
89.02	-0.0430758	0.0
89.09	0.26034	0.0
89.16	-0.140769	0.0
89.23	0.164364	0.0
89.3	-0.13443	0.0
89.37	-0.101175	0.0
89.44	0.260233	0.0
89.51	-0.016492	0.0
89.58	-0.0427837	0.0
89.65	0.00588859	0.0
89.72	0.0847631	0.0
89.79	-0.0383557	0.0
89.86	0.0923201	0.0
89.93	0.239265	0.0
90.0	-0.0354084	0.0
90.07	-0.0736039	0.0
90.14	-0.156123	0.0
90.21	0.276536	0.0
90.28	0.0492348	0.0
90.35	0.175814	0.0
90.42	-0.021931	0.0
90.49	-0.0746223	0.0
90.56	0.257953	0.0
90.63	0.340194	0.0
90.7	0.0634325	0.0
90.77	0.1996	0.0
90.84	0.118516	0.0
90.91	-0.191383	0.0
90.98	0.0854399	0.0
91.05	0.0220321	0.0
91.12	-0.0292096	0.0
91.19	-0.269721	0.0
91.26	0.190435	0.0
91.33	-0.185795	0.0
91.4	0.0749527	0.0
91.47	-0.105288	0.0
91.54	-0.00481737	0.0
91.61	-0.243805	0.0
91.68	0.0623722	0.0
91.75	-0.102448	0.0
91.82	-0.0248051	0.0
91.89	0.09694	0.0
91.96	0.126979	0.0
92.03	-0.187083	0.0
92.1	-0.231417	0.0
92.17	0.0912778	0.0
92.24	0.113672	0.0
92.31	0.0294927	0.0
92.38	-0.159362	0.0
92.45	-0.277953	0.0
92.52	-0.19807	0.0
92.59	0.332834	0.0
92.66	-0.0183098	0.0
92.73	-0.0154507	0.0
92.8	-0.00700348	0.0
92.87	0.00358483	0.0
92.94	0.253245	0.0
93.01	-0.0976832	0.0
93.08	0.00736203	0.0
93.15	0.251158	0.0
93.22	0.00570734	0.0
93.29	0.370266	0.0
93.36	0.0483869	0.0
93.43	0.372868	0.0
93.5	0.0642738	0.0
93.57	0.291599	0.0
93.64	0.118873	0.0
93.71	0.171435	0.0
93.78	-0.0279573	0.0
93.85	-0.0299051	0.0
93.92	-0.130377	0.0
93.99	0.178309	0.0
94.06	-0.161568	0.0
94.13	-0.0326055	0.0
94.2	-0.1007	0.0
94.27	-0.106823	0.0
94.34	0.090118	0.0
94.41	0.0537237	0.0
94.48	-0.043662	0.0
94.55	0.197836	0.0
94.62	0.285739	0.0
94.69	0.243838	0.0
94.76	-0.0109018	0.0
94.83	0.230517	0.0
94.9	0.276309	0.0
94.97	0.764522	0.0
95.04	2.05774	0.0
95.11	6.21073	0.0
95.18	4.92081	0.0
95.25	1.70369	0.0
95.32	0.722093	0.0
95.39	0.52338	0.0
95.46	0.378633	0.0
95.53	0.257467	0.0
95.6	0.0970736	0.0
95.67	-0.123718	0.0
95.74	-0.229759	0.0
95.81	-0.126032	0.0
95.88	0.0101588	0.0
95.95	0.0878399	0.0
96.02	0.0212651	0.0
96.09	-0.1322	0.0
96.16	-0.0673874	0.0
96.23	0.191957	0.0
96.3	0.137257	0.0
96.37	0.00850352	0.0
96.44	0.354128	0.0
96.51	0.0510829	0.0
96.58	-0.0891093	0.0
96.65	0.160062	0.0
96.72	-0.172346	0.0
96.79	0.0797086	0.0
96.86	-0.10774	0.0
96.93	0.0105391	0.0
97.0	-0.048243	0.0
97.07	-0.0709666	0.0
97.14	0.162457	0.0
97.21	-0.0212288	0.0
97.28	0.226781	0.0
97.35	-0.00457859	0.0
97.42	-0.0181764	0.0
97.49	0.144552	0.0
97.56	-0.157767	0.0
97.63	0.198286	0.0
97.7	-0.197079	0.0
97.77	-0.0459713	0.0
97.84	0.0208663	0.0
97.91	0.253533	0.0
97.98	-0.103875	0.0
98.05	0.0710016	0.0
98.12	0.0131014	0.0
98.19	-0.377582	0.0
98.26	-0.195552	0.0
98.33	-0.144263	0.0
98.4	-0.0158632	0.0
98.47	0.137565	0.0
98.54	0.258197	0.0
98.61	-0.0911616	0.0
98.68	0.00501246	0.0
98.75	0.146204	0.0
98.82	0.0280326	0.0
98.89	0.0841673	0.0
98.96	-0.0945015	0.0
99.03	-0.0347629	0.0
99.1	-0.260781	0.0
99.17	0.0782819	0.0
99.24	-0.126395	0.0
99.31	0.273559	0.0
99.38	-0.0313789	0.0
99.45	-0.160529	0.0
99.52	0.0720505	0.0
99.59	-0.130963	0.0
99.66	-0.159558	0.0
99.73	0.159857	0.0
99.8	-0.0568114	0.0
99.87	0.249014	0.0
99.94	0.140671	0.0
100.01	-0.391908	0.0
100.08	-0.0856734	0.0
100.15	0.0836336	0.0
100.22	-0.103639	0.0
100.29	0.220463	0.0
100.36	-0.077214	0.0
100.43	-0.0892724	0.0
100.5	0.229137	0.0
100.57	-0.142265	0.0
100.64	0.10139	0.0
100.71	-0.202402	0.0
100.78	-0.124884	0.0
100.85	0.166112	0.0
100.92	0.0412777	0.0
100.99	-0.116538	0.0
101.06	-0.0503139	0.0
101.13	0.0642559	0.0
101.2	0.159114	0.0
101.27	-0.0355549	0.0
101.34	-0.210093	0.0
101.41	0.00671936	0.0
101.48	-0.211376	0.0
101.55	-0.150349	0.0
101.62	0.250477	0.0
101.69	0.0442106	0.0
101.76	-0.151715	0.0
101.83	0.0430658	0.0
101.9	0.213317	0.0
101.97	-0.239657	0.0
102.04	-0.094816	0.0
102.11	0.0964516	0.0
102.18	0.248563	0.0
102.25	0.118133	0.0
102.32	-0.153882	0.0
102.39	-0.205622	0.0
102.46	-0.031565	0.0
102.53	-0.313024	0.0
102.6	0.0938658	0.0
102.67	-0.34853	0.0
102.74	-0.11761	0.0
102.81	-0.0169507	0.0
102.88	-0.229042	0.0
102.95	0.00191817	0.0
103.02	-0.227379	0.0
103.09	0.0176496	0.0
103.16	0.124304	0.0
103.23	0.0252107	0.0
103.3	-0.252934	0.0
103.37	0.0389686	0.0
103.44	-0.000855799	0.0
103.51	0.248523	0.0
103.58	0.0901915	0.0
103.65	-0.067373	0.0
103.72	-0.157187	0.0
103.79	0.43511	0.0
103.86	0.00668072	0.0
103.93	0.0880871	0.0
104.0	-0.100736	0.0
104.07	0.494531	0.0
104.14	0.784824	0.0
104.21	0.982239	0.0
104.28	0.495997	0.0
104.35	-0.135477	0.0
104.42	-0.204071	0.0
104.49	0.171131	0.0
104.56	0.183299	0.0
104.63	-0.0271034	0.0
104.7	0.162704	0.0
104.77	-0.0409199	0.0
104.84	-0.187011	0.0
104.91	0.101748	0.0
104.98	0.316352	0.0
105.05	0.128479	0.0
105.12	-0.0493873	0.0
105.19	-0.108735	0.0
105.26	0.163297	0.0
105.33	-0.338462	0.0
105.4	-0.134784	0.0
105.47	0.0868435	0.0
105.54	-0.176779	0.0
105.61	-0.0344323	0.0
105.68	-0.0587951	0.0
105.75	0.0160674	0.0
105.82	0.0951374	0.0
105.89	0.122577	0.0
105.96	-0.0682874	0.0
106.03	0.165773	0.0
106.1	0.105385	0.0
106.17	-0.305126	0.0
106.24	-0.151189	0.0
106.31	-0.25075	0.0
106.38	0.0345061	0.0
106.45	-0.0899768	0.0
106.52	0.0160844	0.0
106.59	-0.080684	0.0
106.66	-0.0647511	0.0
106.73	0.178583	0.0
106.8	0.350005	0.0
106.87	0.105062	0.0
106.94	0.00971367	0.0
107.01	0.150562	0.0
107.08	0.027841	0.0
107.15	0.0578679	0.0
107.22	-0.226803	0.0
107.29	-0.10167	0.0
107.36	-0.364338	0.0
107.43	-0.130166	0.0
107.5	0.0132387	0.0
107.57	0.173136	0.0
107.64	0.310212	0.0
107.71	0.109773	0.0
107.78	-0.181031	0.0
107.85	-0.280679	0.0
107.92	0.0283472	0.0
107.99	0.0266445	0.0
108.06	0.00956913	0.0
108.13	0.123912	0.0
108.2	-0.064163	0.0
108.27	0.160696	0.0
108.34	-0.255907	0.0
108.41	-0.0660233	0.0
108.48	0.464896	0.0
108.55	-0.100402	0.0
108.62	-0.000471707	0.0
108.69	0.199055	0.0
108.76	0.243965	0.0
108.83	0.39805	0.0
108.9	0.351397	0.0
108.97	0.201912	0.0
109.04	-0.00589818	0.0
109.11	-0.0181128	0.0
109.18	0.0384817	0.0
109.25	0.155287	0.0
109.32	0.0562369	0.0
109.39	-0.0418695	0.0
109.46	0.0975686	0.0
109.53	-0.0835758	0.0
109.6	-0.358766	0.0
109.67	-0.404603	0.0
109.74	-0.134321	0.0
109.81	0.177144	0.0
109.88	-0.0159591	0.0
109.95	0.110696	0.0
110.02	-0.170223	0.0
110.09	0.0188158	0.0
110.16	0.0520995	0.0
110.23	-0.0436717	0.0
110.3	0.129887	0.0
110.37	0.270341	0.0
110.44	0.105146	0.0
110.51	0.0352825	0.0
110.58	-0.076941	0.0
110.65	-0.0658115	0.0
110.72	0.11715	0.0
110.79	0.00655088	0.0
110.86	0.0559628	0.0
110.93	-0.0164759	0.0
111.0	0.12764	0.0
111.07	-0.190709	0.0
111.14	0.0665385	0.0
111.21	-0.0410265	0.0
111.28	0.181391	0.0
111.35	0.00625405	0.0
111.42	-0.227548	0.0
111.49	0.0271924	0.0
111.56	0.159088	0.0
111.63	-0.225973	0.0
111.7	0.188363	0.0
111.77	-0.0700527	0.0
111.84	-0.0818736	0.0
111.91	-0.058468	0.0
111.98	0.152876	0.0
112.05	0.0567016	0.0
112.12	-0.153299	0.0
112.19	0.00150481	0.0
112.26	0.311137	0.0
112.33	-0.185632	0.0
112.4	-0.030524	0.0
112.47	0.196461	0.0
112.54	-0.024707	0.0
112.61	0.113038	0.0
112.68	0.0871563	0.0
112.75	-0.0608664	0.0
112.82	0.0352061	0.0
112.89	0.182049	0.0
112.96	0.240437	0.0
113.03	0.379607	0.0
113.1	0.0149163	0.0
113.17	0.233353	0.0
113.24	0.196725	0.0
113.31	0.0333609	0.0
113.38	0.392598	0.0
113.45	0.523859	0.0
113.52	1.43967	0.0
113.59	2.93564	0.0
113.66	3.38722	0.0
113.73	1.9126	0.0
113.8	0.547658	0.0
113.87	0.626785	0.0
113.94	0.0865484	0.0
114.01	0.181173	0.0
114.08	0.0697875	0.0
114.15	0.0867958	0.0
114.22	0.281112	0.0
114.29	0.124718	0.0
114.36	0.036079	0.0
114.43	0.237262	0.0
114.5	0.164498	0.0
114.57	0.103763	0.0
114.64	0.0458431	0.0
114.71	-0.188125	0.0
114.78	0.00857938	0.0
114.85	0.414856	0.0
114.92	0.201536	0.0
114.99	-0.0586039	0.0
115.06	0.086368	0.0
115.13	0.142775	0.0
115.2	0.139336	0.0
115.27	0.0295126	0.0
115.34	0.0111285	0.0
115.41	-0.126921	0.0
115.48	-0.102589	0.0
115.55	0.148518	0.0
115.62	0.231682	0.0
115.69	0.0564456	0.0
115.76	0.0562565	0.0
115.83	-0.0133108	0.0
115.9	0.0589911	0.0
115.97	0.244195	0.0
116.04	-0.0826764	0.0
116.11	-0.0288618	0.0
116.18	-0.124935	0.0
116.25	-0.0267355	0.0
116.32	0.234235	0.0
116.39	0.113919	0.0
116.46	0.162465	0.0
116.53	-0.0703209	0.0
116.6	-0.106787	0.0
116.67	-0.156066	0.0
116.74	-0.0826833	0.0
116.81	0.0544206	0.0
116.88	0.169074	0.0
116.95	-0.043293	0.0
117.02	-0.0789143	0.0
117.09	-0.193737	0.0
117.16	0.179145	0.0
117.23	0.101918	0.0
117.3	0.065456	0.0
117.37	-0.0170201	0.0
117.44	0.0619601	0.0
117.51	0.178451	0.0
117.58	0.147568	0.0
117.65	0.0786113	0.0
117.72	-0.0441248	0.0
117.79	-0.0285421	0.0
117.86	-0.197546	0.0
117.93	0.197024	0.0
118.0	0.055025	0.0
118.07	0.164659	0.0
118.14	0.170351	0.0
118.21	0.0380745	0.0
118.28	0.117444	0.0
118.35	-0.134437	0.0
118.42	0.384616	0.0
118.49	0.199942	0.0
118.56	0.986406	0.0
118.63	0.721078	0.0
118.7	0.200341	0.0
118.77	0.142949	0.0
118.84	-0.0170712	0.0
118.91	-0.0443105	0.0
118.98	-0.135877	0.0
119.05	0.325382	0.0
119.12	0.339838	0.0
119.19	0.154429	0.0
119.26	-0.198974	0.0
119.33	0.163455	0.0
119.4	0.199212	0.0
119.47	0.17724	0.0
119.54	-0.0424681	0.0
119.61	-0.106317	0.0
119.68	0.165915	0.0
119.75	0.140466	0.0
119.82	-0.0627626	0.0
119.89	0.229661	0.0
119.96	-0.142982	0.0
119.99	0.199774	0.0